{"resourceType":"Bundle","id":"bundle1","meta":{"lastUpdated":"2019-07-24T01:43:30Z"},"type":"transaction","entry":[{"fullUrl":"urn:uuid:8df87da3-5c85-4bea-8996-33b364a0eea9","resource":{"resourceType":"Practitioner","meta":{"versionId":"1","lastUpdated":"2019-07-01T13:30:55.864+00:00","profile":["https://www.ehealth.fgov.be/standards/fhir/StructureDefinition/be-practitioner"]},"text":{"status":"generated","div":"<div xmlns=\"http://www.w3.org/1999/xhtml\"><div class=\"hapiHeaderText\">Katherine<b>Pulaski</b></div><table class=\"hapiPropertyTable\"><tbody><tr><td>Identifier</td><td>79121137740</td></tr><tr><td>Address</td><td><span>Grimbergen</span><span>BE </span></td></tr><tr><td>Date of birth</td><td><span>11 December 1979</span></td></tr></tbody></table></div>"},"identifier":[{"use":"official","system":"https://www.ehealth.fgov.be/standards/fhir/NamingSystem/ssin","value":"79121137740"},{"use":"official","system":"https://www.ehealth.fgov.be/standards/fhir/NamingSystem/nihdi","value":"18749704477"}],"name":[{"use":"official","family":"Pulaski","given":["Katherine"],"suffix":["MD"]}],"telecom":[{"system":"phone","value":"022675198","use":"work"},{"system":"email","value":"katherine.pulaski@enterprisehospital.be","use":"work"},{"system":"fax","value":"022675209","use":"work"}],"address":[{"use":"home","line":["Jupiterlaan 5"],"_line":[{"extension":[{"url":"http://hl7.org/fhir/StructureDefinition/iso21090-ADXP-streetName","valueString":"Jupiterlaan"},{"url":"http://hl7.org/fhir/StructureDefinition/iso21090-ADXP-houseNumber","valueString":"5"}]}],"city":"Grimbergen","postalCode":"1853","country":"BE"}],"gender":"female","birthDate":"1979-12-11"},"request":{"method":"POST","url":"Practitioner"}},{"fullUrl":"urn:uuid:2a971dd8-b621-4a74-b984-ca2a7a619220","resource":{"resourceType":"Organization","id":"47300","meta":{"versionId":"1","lastUpdated":"2019-07-01T13:30:55.864+00:00","profile":["https://www.ehealth.fgov.be/standards/fhir/StructureDefinition/be-organization"]},"text":{"status":"generated","div":"<div xmlns=\"http://www.w3.org/1999/xhtml\"><div class=\"hapiHeaderText\">Enterprise Hospital<b></b></div><table class=\"hapiPropertyTable\"><tbody><tr><td>Identifier</td><td>0425.222.333</td></tr><tr><td>Address</td><td><span>Brussel </span><span>BE</span></td></tr><tr><td></td><td><span></span></td></tr></tbody></table></div>"},"identifier":[{"use":"official","type":{"coding":[{"system":"http://terminology.hl7.org/CodeSystem/v2-0203","code":"PRN","display":"Provider Number"}]},"system":"https://www.ehealth.fgov.be/standards/fhir/NamingSystem/cbe","value":"0425.222.333"},{"use":"official","system":"https://www.ehealth.fgov.be/standards/fhir/NamingSystem/nihdi","value":"999999999"}],"active":true,"type":[{"coding":[{"system":"https://www.ehealth.fgov.be/standards/fhir/CodeSystem/cd-hcparty","code":"orghospital"}]}],"name":"Enterprise Hospital Ziekenhuis","telecom":[{"system":"phone","value":"+322675199","use":"work"}],"address":[{"extension":[{"url":"http://hl7.org/fhir/StructureDefinition/language","valueCode":"nl"}],"use":"work","type":"both","text":"Vulcansstraat 120, 1000 Brussel","line":["Vulcansstraat 120"],"_line":[{"extension":[{"url":"http://hl7.org/fhir/StructureDefinition/iso21090-ADXP-streetName","valueString":"Vulcansstraat"},{"url":"http://hl7.org/fhir/StructureDefinition/iso21090-ADXP-houseNumber","valueString":"120"}]}],"city":"Brussel","postalCode":"1000","country":"BE"},{"extension":[{"url":"http://hl7.org/fhir/StructureDefinition/language","valueCode":"fr"}],"use":"work","type":"both","text":"120, Rue des Vulcans, 1000 Bruxelles","line":["120, Rue des Vulcans"],"_line":[{"extension":[{"url":"http://hl7.org/fhir/StructureDefinition/iso21090-ADXP-streetName","valueString":"Rue des Vulcans"},{"url":"http://hl7.org/fhir/StructureDefinition/iso21090-ADXP-houseNumber","valueString":"120"}]}],"city":"Bruxelles","postalCode":"1000","country":"BE"}]},"request":{"method":"POST","url":"Organization"}},{"fullUrl":"urn:uuid:8cf2c41f-988e-40b8-8832-cad4f10803f5","resource":{"resourceType":"Provenance","id":"example","meta":{"versionId":"1","lastUpdated":"2019-06-27T08:39:24+02:00","profile":["https://www.ehealth.fgov.be/standards/fhir/StructureDefinition/be-provenance"]},"text":{"status":"generated","div":"<div xmlns=\"http://www.w3.org/1999/xhtml\">Practitioner record created on 27-June 2019 by Enterprise Ziekenhuis Hospital.</div>"},"target":[{"reference":"urn:uuid:8df87da3-5c85-4bea-8996-33b364a0eea9"}],"recorded":"2019-06-27T08:39:24+02:00","reason":[{"coding":[{"system":"http://terminology.hl7.org/CodeSystem/v3-ActReason","code":"HOPERAT","display":"Healthcare Operations"}]}],"activity":{"coding":[{"system":"http://terminology.hl7.org/CodeSystem/v3-DataOperation","code":"CREATE"}]},"agent":[{"type":{"coding":[{"system":"http://terminology.hl7.org/CodeSystem/provenance-participant-type","code":"author"}]},"who":{"reference":"urn:uuid:2a971dd8-b621-4a74-b984-ca2a7a619220","display":"Enterprise Hospital Ziekenhuis"}}]},"request":{"method":"POST","url":"Provenance"}}]}